success,timeout,failed_images,failed_audio,failed_video,trial_type,trial_index,time_elapsed,internal_node_id,subject_id,study_id,session_id,rt,stimulus,response,view_history,task,correct_response,correct
TRUE,FALSE,[],[],[],preload,0,7501,0.0-0.0,pilota_data_1635121752309,,,,,,,,,
TRUE,,,,,fullscreen,1,22547,0.0-1.0,pilota_data_1635121752309,,,,,,,,,
,,,,,html-keyboard-response,2,36237,0.0-2.0,pilota_data_1635121752309,,,13688,"Welcome to the experiment. <br /><br />For this study, <strong>please use</strong> a laptop or desktop computer (not a mobile phone or tablet). Also, please use either <u>Chrome or Firefox</u>. <br /><br />Once you begin, <strong>DO NOT</strong> refresh the browser, as the experiment will reset and you will lose your progress. <br /><br />Press the <strong class=""upperline"">B</strong> key on your keyboard to begin.",b,,,,
,,,,,instructions,4,128582,0.0-4.0,pilota_data_1635121752309,,,21338,,,"[{""page_index"":0,""viewing_time"":7116},{""page_index"":1,""viewing_time"":8369},{""page_index"":2,""viewing_time"":3310},{""page_index"":3,""viewing_time"":2542}]",,,
,,,,,html-keyboard-response,5,131596,0.0-5.0-0.0,pilota_data_1635121752309,,,null,"<div style=""font-size:60px;"">+</div>",null,,fixation,,
,,,,,image-keyboard-response,6,137612,0.0-5.0-1.0,pilota_data_1635121752309,,,null,img/encoding_events/Event_8.jpg,null,,,,
,,,,,html-keyboard-response,7,138120,0.0-5.0-0.1,pilota_data_1635121752309,,,null,"<div style=""font-size:60px;"">+</div>",null,,fixation,,
,,,,,image-keyboard-response,8,144128,0.0-5.0-1.1,pilota_data_1635121752309,,,null,img/encoding_events/Event_2.jpg,null,,,,
,,,,,html-keyboard-response,9,144631,0.0-5.0-0.2,pilota_data_1635121752309,,,null,"<div style=""font-size:60px;"">+</div>",null,,fixation,,
,,,,,image-keyboard-response,10,150639,0.0-5.0-1.2,pilota_data_1635121752309,,,null,img/encoding_events/Event_3.jpg,null,,,,
,,,,,html-keyboard-response,11,151146,0.0-5.0-0.3,pilota_data_1635121752309,,,null,"<div style=""font-size:60px;"">+</div>",null,,fixation,,
,,,,,image-keyboard-response,12,157156,0.0-5.0-1.3,pilota_data_1635121752309,,,null,img/encoding_events/Event_17.jpg,null,,,,
,,,,,html-keyboard-response,13,157660,0.0-5.0-0.4,pilota_data_1635121752309,,,null,"<div style=""font-size:60px;"">+</div>",null,,fixation,,
,,,,,image-keyboard-response,14,163668,0.0-5.0-1.4,pilota_data_1635121752309,,,null,img/encoding_events/Event_6.jpg,null,,,,
,,,,,html-keyboard-response,15,164175,0.0-5.0-0.5,pilota_data_1635121752309,,,null,"<div style=""font-size:60px;"">+</div>",null,,fixation,,
,,,,,image-keyboard-response,16,170178,0.0-5.0-1.5,pilota_data_1635121752309,,,null,img/encoding_events/Event_19.jpg,null,,,,
,,,,,html-keyboard-response,17,170685,0.0-5.0-0.6,pilota_data_1635121752309,,,null,"<div style=""font-size:60px;"">+</div>",null,,fixation,,
,,,,,image-keyboard-response,18,176690,0.0-5.0-1.6,pilota_data_1635121752309,,,null,img/encoding_events/Event_9.jpg,null,,,,
,,,,,html-keyboard-response,19,177196,0.0-5.0-0.7,pilota_data_1635121752309,,,null,"<div style=""font-size:60px;"">+</div>",null,,fixation,,
,,,,,image-keyboard-response,20,183204,0.0-5.0-1.7,pilota_data_1635121752309,,,null,img/encoding_events/Event_14.jpg,null,,,,
,,,,,html-keyboard-response,21,183706,0.0-5.0-0.8,pilota_data_1635121752309,,,null,"<div style=""font-size:60px;"">+</div>",null,,fixation,,
,,,,,image-keyboard-response,22,189713,0.0-5.0-1.8,pilota_data_1635121752309,,,null,img/encoding_events/Event_21.jpg,null,,,,
,,,,,html-keyboard-response,23,190216,0.0-5.0-0.9,pilota_data_1635121752309,,,null,"<div style=""font-size:60px;"">+</div>",null,,fixation,,
,,,,,image-keyboard-response,24,196220,0.0-5.0-1.9,pilota_data_1635121752309,,,null,img/encoding_events/Event_10.jpg,null,,,,
,,,,,html-keyboard-response,25,196726,0.0-5.0-0.10,pilota_data_1635121752309,,,null,"<div style=""font-size:60px;"">+</div>",null,,fixation,,
,,,,,image-keyboard-response,26,202730,0.0-5.0-1.10,pilota_data_1635121752309,,,null,img/encoding_events/Event_12.jpg,null,,,,
,,,,,html-keyboard-response,27,203236,0.0-5.0-0.11,pilota_data_1635121752309,,,null,"<div style=""font-size:60px;"">+</div>",null,,fixation,,
,,,,,image-keyboard-response,28,209244,0.0-5.0-1.11,pilota_data_1635121752309,,,null,img/encoding_events/Event_24.jpg,null,,,,
,,,,,html-keyboard-response,29,209749,0.0-5.0-0.12,pilota_data_1635121752309,,,null,"<div style=""font-size:60px;"">+</div>",null,,fixation,,
,,,,,image-keyboard-response,30,215757,0.0-5.0-1.12,pilota_data_1635121752309,,,null,img/encoding_events/Event_20.jpg,null,,,,
,,,,,html-keyboard-response,31,216263,0.0-5.0-0.13,pilota_data_1635121752309,,,null,"<div style=""font-size:60px;"">+</div>",null,,fixation,,
,,,,,image-keyboard-response,32,222266,0.0-5.0-1.13,pilota_data_1635121752309,,,null,img/encoding_events/Event_16.jpg,null,,,,
,,,,,html-keyboard-response,33,222773,0.0-5.0-0.14,pilota_data_1635121752309,,,null,"<div style=""font-size:60px;"">+</div>",null,,fixation,,
,,,,,image-keyboard-response,34,228780,0.0-5.0-1.14,pilota_data_1635121752309,,,null,img/encoding_events/Event_18.jpg,null,,,,
,,,,,html-keyboard-response,35,229284,0.0-5.0-0.15,pilota_data_1635121752309,,,null,"<div style=""font-size:60px;"">+</div>",null,,fixation,,
,,,,,image-keyboard-response,36,235290,0.0-5.0-1.15,pilota_data_1635121752309,,,null,img/encoding_events/Event_4.jpg,null,,,,
,,,,,html-keyboard-response,37,235795,0.0-5.0-0.16,pilota_data_1635121752309,,,null,"<div style=""font-size:60px;"">+</div>",null,,fixation,,
,,,,,image-keyboard-response,38,241802,0.0-5.0-1.16,pilota_data_1635121752309,,,null,img/encoding_events/Event_11.jpg,null,,,,
,,,,,html-keyboard-response,39,242309,0.0-5.0-0.17,pilota_data_1635121752309,,,null,"<div style=""font-size:60px;"">+</div>",null,,fixation,,
,,,,,image-keyboard-response,40,248313,0.0-5.0-1.17,pilota_data_1635121752309,,,null,img/encoding_events/Event_1.jpg,null,,,,
,,,,,html-keyboard-response,41,248815,0.0-5.0-0.18,pilota_data_1635121752309,,,null,"<div style=""font-size:60px;"">+</div>",null,,fixation,,
,,,,,image-keyboard-response,42,254823,0.0-5.0-1.18,pilota_data_1635121752309,,,null,img/encoding_events/Event_22.jpg,null,,,,
,,,,,html-keyboard-response,43,255325,0.0-5.0-0.19,pilota_data_1635121752309,,,null,"<div style=""font-size:60px;"">+</div>",null,,fixation,,
,,,,,image-keyboard-response,44,261329,0.0-5.0-1.19,pilota_data_1635121752309,,,null,img/encoding_events/Event_5.jpg,null,,,,
,,,,,html-keyboard-response,45,261832,0.0-5.0-0.20,pilota_data_1635121752309,,,null,"<div style=""font-size:60px;"">+</div>",null,,fixation,,
,,,,,image-keyboard-response,46,267836,0.0-5.0-1.20,pilota_data_1635121752309,,,null,img/encoding_events/Event_15.jpg,null,,,,
,,,,,html-keyboard-response,47,268338,0.0-5.0-0.21,pilota_data_1635121752309,,,null,"<div style=""font-size:60px;"">+</div>",null,,fixation,,
,,,,,image-keyboard-response,48,274341,0.0-5.0-1.21,pilota_data_1635121752309,,,null,img/encoding_events/Event_13.jpg,null,,,,
,,,,,html-keyboard-response,49,274848,0.0-5.0-0.22,pilota_data_1635121752309,,,null,"<div style=""font-size:60px;"">+</div>",null,,fixation,,
,,,,,image-keyboard-response,50,280853,0.0-5.0-1.22,pilota_data_1635121752309,,,null,img/encoding_events/Event_7.jpg,null,,,,
,,,,,html-keyboard-response,51,281359,0.0-5.0-0.23,pilota_data_1635121752309,,,null,"<div style=""font-size:60px;"">+</div>",null,,fixation,,
,,,,,image-keyboard-response,52,287366,0.0-5.0-1.23,pilota_data_1635121752309,,,null,img/encoding_events/Event_23.jpg,null,,,,
,,,,,instructions,53,331979,0.0-6.0,pilota_data_1635121752309,,,44613,,,"[{""page_index"":0,""viewing_time"":2255},{""page_index"":1,""viewing_time"":6365},{""page_index"":2,""viewing_time"":9983},{""page_index"":3,""viewing_time"":15365},{""page_index"":4,""viewing_time"":9160},{""page_index"":5,""viewing_time"":1485}]",,,
,,,,,image-keyboard-response,54,343378,0.0-7.0-0.0,pilota_data_1635121752309,,,8892,img/testing_events/Ca/Test_Ca_Event_18.jpg,u,,response,u,TRUE
,,,,,image-keyboard-response,55,352670,0.0-7.0-0.1,pilota_data_1635121752309,,,9289,img/testing_events/Ac/Test_Ac_Event_5.jpg,u,,response,u,TRUE
,,,,,image-keyboard-response,56,358172,0.0-7.0-0.2,pilota_data_1635121752309,,,5499,img/testing_events/Ac/Test_Ac_Event_3.jpg,n,,response,n,TRUE
,,,,,image-keyboard-response,57,363346,0.0-7.0-0.3,pilota_data_1635121752309,,,5172,img/testing_events/Cb/Test_Cb_Event_11.jpg,n,,response,n,TRUE
,,,,,image-keyboard-response,58,368555,0.0-7.0-0.4,pilota_data_1635121752309,,,5206,img/testing_events/Bc/Test_Bc_Event_10.jpg,e,,response,e,TRUE
,,,,,image-keyboard-response,59,371243,0.0-7.0-0.5,pilota_data_1635121752309,,,2686,img/testing_events/Ab/Test_Ab_Event_3.jpg,c,,response,c,TRUE
,,,,,image-keyboard-response,60,377825,0.0-7.0-0.6,pilota_data_1635121752309,,,6579,img/testing_events/Ca/Test_Ca_Event_7.jpg,c,,response,c,TRUE
,,,,,image-keyboard-response,61,381167,0.0-7.0-0.7,pilota_data_1635121752309,,,3340,img/testing_events/Cb/Test_Cb_Event_14.jpg,c,,response,c,TRUE
,,,,,image-keyboard-response,62,385161,0.0-7.0-0.8,pilota_data_1635121752309,,,3991,img/testing_events/Ab/Test_Ab_Event_24.jpg,n,,response,n,TRUE
,,,,,image-keyboard-response,63,387285,0.0-7.0-0.9,pilota_data_1635121752309,,,2122,img/testing_events/Cb/Test_Cb_Event_10.jpg,c,,response,c,TRUE
,,,,,image-keyboard-response,64,389884,0.0-7.0-0.10,pilota_data_1635121752309,,,2596,img/testing_events/Cb/Test_Cb_Event_8.jpg,e,,response,e,TRUE
,,,,,image-keyboard-response,65,397141,0.0-7.0-0.11,pilota_data_1635121752309,,,7255,img/testing_events/Ab/Test_Ab_Event_7.jpg,e,,response,c,FALSE
,,,,,image-keyboard-response,66,402792,0.0-7.0-0.12,pilota_data_1635121752309,,,5649,img/testing_events/Ca/Test_Ca_Event_10.jpg,u,,response,u,TRUE
,,,,,image-keyboard-response,67,408885,0.0-7.0-0.13,pilota_data_1635121752309,,,6091,img/testing_events/Bc/Test_Bc_Event_14.jpg,e,,response,e,TRUE
,,,,,image-keyboard-response,68,414229,0.0-7.0-0.14,pilota_data_1635121752309,,,5341,img/testing_events/Ab/Test_Ab_Event_6.jpg,u,,response,u,TRUE
,,,,,image-keyboard-response,69,416682,0.0-7.0-0.15,pilota_data_1635121752309,,,2451,img/testing_events/Ab/Test_Ab_Event_15.jpg,c,,response,c,TRUE
,,,,,image-keyboard-response,70,419192,0.0-7.0-0.16,pilota_data_1635121752309,,,2508,img/testing_events/Ba/Test_Ba_Event_14.jpg,n,,response,n,TRUE
,,,,,image-keyboard-response,71,420699,0.0-7.0-0.17,pilota_data_1635121752309,,,1505,img/testing_events/Ab/Test_Ab_Event_21.jpg,e,,response,e,TRUE
,,,,,image-keyboard-response,72,423959,0.0-7.0-0.18,pilota_data_1635121752309,,,3258,img/testing_events/Ca/Test_Ca_Event_17.jpg,e,,response,e,TRUE
,,,,,image-keyboard-response,73,435144,0.0-7.0-0.19,pilota_data_1635121752309,,,11182,img/testing_events/Ac/Test_Ac_Event_21.jpg,u,,response,u,TRUE
,,,,,image-keyboard-response,74,439271,0.0-7.0-0.20,pilota_data_1635121752309,,,4125,img/testing_events/Ac/Test_Ac_Event_2.jpg,c,,response,c,TRUE
,,,,,image-keyboard-response,75,446632,0.0-7.0-0.21,pilota_data_1635121752309,,,7358,img/testing_events/Ac/Test_Ac_Event_8.jpg,e,,response,e,TRUE
,,,,,image-keyboard-response,76,455180,0.0-7.0-0.22,pilota_data_1635121752309,,,8547,img/testing_events/Bc/Test_Bc_Event_21.jpg,n,,response,n,TRUE
,,,,,image-keyboard-response,77,457665,0.0-7.0-0.23,pilota_data_1635121752309,,,2483,img/testing_events/Ca/Test_Ca_Event_14.jpg,u,,response,u,TRUE
,,,,,image-keyboard-response,78,460467,0.0-7.0-0.24,pilota_data_1635121752309,,,2800,img/testing_events/Ba/Test_Ba_Event_23.jpg,e,,response,e,TRUE
,,,,,image-keyboard-response,79,467633,0.0-7.0-0.25,pilota_data_1635121752309,,,7164,img/testing_events/Ba/Test_Ba_Event_22.jpg,n,,response,n,TRUE
,,,,,image-keyboard-response,80,471976,0.0-7.0-0.26,pilota_data_1635121752309,,,4341,img/testing_events/Ac/Test_Ac_Event_6.jpg,c,,response,c,TRUE
,,,,,image-keyboard-response,81,474607,0.0-7.0-0.27,pilota_data_1635121752309,,,2629,img/testing_events/Ab/Test_Ab_Event_19.jpg,c,,response,c,TRUE
,,,,,image-keyboard-response,82,478455,0.0-7.0-0.28,pilota_data_1635121752309,,,3845,img/testing_events/Cb/Test_Cb_Event_3.jpg,n,,response,n,TRUE
,,,,,image-keyboard-response,83,480254,0.0-7.0-0.29,pilota_data_1635121752309,,,1797,img/testing_events/Cb/Test_Cb_Event_7.jpg,e,,response,n,FALSE
,,,,,image-keyboard-response,84,482596,0.0-7.0-0.30,pilota_data_1635121752309,,,2340,img/testing_events/Bc/Test_Bc_Event_17.jpg,n,,response,n,TRUE
,,,,,image-keyboard-response,85,489853,0.0-7.0-0.31,pilota_data_1635121752309,,,7255,img/testing_events/Bc/Test_Bc_Event_20.jpg,c,,response,c,TRUE
,,,,,image-keyboard-response,86,491911,0.0-7.0-0.32,pilota_data_1635121752309,,,2055,img/testing_events/Bc/Test_Bc_Event_5.jpg,n,,response,n,TRUE
,,,,,image-keyboard-response,87,493418,0.0-7.0-0.33,pilota_data_1635121752309,,,1502,img/testing_events/Ba/Test_Ba_Event_19.jpg,e,,response,e,TRUE
,,,,,image-keyboard-response,88,495577,0.0-7.0-0.34,pilota_data_1635121752309,,,2156,img/testing_events/Ab/Test_Ab_Event_16.jpg,n,,response,n,TRUE
,,,,,image-keyboard-response,89,498380,0.0-7.0-0.35,pilota_data_1635121752309,,,2800,img/testing_events/Ab/Test_Ab_Event_2.jpg,u,,response,u,TRUE
,,,,,image-keyboard-response,90,502496,0.0-7.0-0.36,pilota_data_1635121752309,,,4114,img/testing_events/Ca/Test_Ca_Event_3.jpg,c,,response,c,TRUE
,,,,,image-keyboard-response,91,505421,0.0-7.0-0.37,pilota_data_1635121752309,,,2923,img/testing_events/Ba/Test_Ba_Event_17.jpg,c,,response,c,TRUE
,,,,,image-keyboard-response,92,507254,0.0-7.0-0.38,pilota_data_1635121752309,,,1831,img/testing_events/Bc/Test_Bc_Event_3.jpg,u,,response,u,TRUE
,,,,,image-keyboard-response,93,519597,0.0-7.0-0.39,pilota_data_1635121752309,,,12341,img/testing_events/Bc/Test_Bc_Event_22.jpg,u,,response,e,FALSE
,,,,,image-keyboard-response,94,526536,0.0-7.0-0.40,pilota_data_1635121752309,,,6938,img/testing_events/Ab/Test_Ab_Event_1.jpg,e,,response,e,TRUE
,,,,,image-keyboard-response,95,530116,0.0-7.0-0.41,pilota_data_1635121752309,,,3577,img/testing_events/Ba/Test_Ba_Event_18.jpg,n,,response,n,TRUE
,,,,,image-keyboard-response,96,535616,0.0-7.0-0.42,pilota_data_1635121752309,,,5498,img/testing_events/Bc/Test_Bc_Event_13.jpg,n,,response,n,TRUE
,,,,,image-keyboard-response,97,538474,0.0-7.0-0.43,pilota_data_1635121752309,,,2856,img/testing_events/Ab/Test_Ab_Event_11.jpg,c,,response,c,TRUE
,,,,,image-keyboard-response,98,542503,0.0-7.0-0.44,pilota_data_1635121752309,,,4027,img/testing_events/Cb/Test_Cb_Event_20.jpg,e,,response,e,TRUE
,,,,,image-keyboard-response,99,545562,0.0-7.0-0.45,pilota_data_1635121752309,,,3057,img/testing_events/Ac/Test_Ac_Event_14.jpg,c,,response,c,TRUE
,,,,,image-keyboard-response,100,550367,0.0-7.0-0.46,pilota_data_1635121752309,,,4803,img/testing_events/Ba/Test_Ba_Event_2.jpg,n,,response,n,TRUE
,,,,,image-keyboard-response,101,555374,0.0-7.0-0.47,pilota_data_1635121752309,,,5005,img/testing_events/Ac/Test_Ac_Event_1.jpg,u,,response,u,TRUE
,,,,,image-keyboard-response,102,557666,0.0-7.0-0.48,pilota_data_1635121752309,,,2290,img/testing_events/Ab/Test_Ab_Event_8.jpg,n,,response,n,TRUE
,,,,,image-keyboard-response,103,560658,0.0-7.0-0.49,pilota_data_1635121752309,,,2987,img/testing_events/Ab/Test_Ab_Event_17.jpg,e,,response,e,TRUE
,,,,,image-keyboard-response,104,563821,0.0-7.0-0.50,pilota_data_1635121752309,,,3160,img/testing_events/Bc/Test_Bc_Event_11.jpg,u,,response,u,TRUE
,,,,,image-keyboard-response,105,572171,0.0-7.0-0.51,pilota_data_1635121752309,,,8348,img/testing_events/Cb/Test_Cb_Event_22.jpg,c,,response,c,TRUE
,,,,,image-keyboard-response,106,575249,0.0-7.0-0.52,pilota_data_1635121752309,,,3076,img/testing_events/Ac/Test_Ac_Event_18.jpg,c,,response,c,TRUE
,,,,,image-keyboard-response,107,577476,0.0-7.0-0.53,pilota_data_1635121752309,,,2225,img/testing_events/Ca/Test_Ca_Event_2.jpg,u,,response,u,TRUE
,,,,,image-keyboard-response,108,578884,0.0-7.0-0.54,pilota_data_1635121752309,,,1406,img/testing_events/Ba/Test_Ba_Event_15.jpg,e,,response,e,TRUE
,,,,,image-keyboard-response,109,582810,0.0-7.0-0.55,pilota_data_1635121752309,,,3924,img/testing_events/Ac/Test_Ac_Event_9.jpg,u,,response,u,TRUE
,,,,,image-keyboard-response,110,589638,0.0-7.0-0.56,pilota_data_1635121752309,,,6825,img/testing_events/Cb/Test_Cb_Event_1.jpg,u,,response,u,TRUE
,,,,,image-keyboard-response,111,593791,0.0-7.0-0.57,pilota_data_1635121752309,,,4151,img/testing_events/Ca/Test_Ca_Event_9.jpg,e,,response,e,TRUE
,,,,,image-keyboard-response,112,599539,0.0-7.0-0.58,pilota_data_1635121752309,,,5746,img/testing_events/Cb/Test_Cb_Event_4.jpg,e,,response,e,TRUE
,,,,,image-keyboard-response,113,604083,0.0-7.0-0.59,pilota_data_1635121752309,,,4542,img/testing_events/Bc/Test_Bc_Event_16.jpg,c,,response,c,TRUE
,,,,,image-keyboard-response,114,608921,0.0-7.0-0.60,pilota_data_1635121752309,,,4837,img/testing_events/Ab/Test_Ab_Event_18.jpg,u,,response,u,TRUE
,,,,,image-keyboard-response,115,611486,0.0-7.0-0.61,pilota_data_1635121752309,,,2562,img/testing_events/Ba/Test_Ba_Event_8.jpg,u,,response,u,TRUE
,,,,,image-keyboard-response,116,613757,0.0-7.0-0.62,pilota_data_1635121752309,,,2269,img/testing_events/Ca/Test_Ca_Event_6.jpg,u,,response,u,TRUE
,,,,,image-keyboard-response,117,615717,0.0-7.0-0.63,pilota_data_1635121752309,,,1957,img/testing_events/Ca/Test_Ca_Event_15.jpg,c,,response,c,TRUE
,,,,,image-keyboard-response,118,617729,0.0-7.0-0.64,pilota_data_1635121752309,,,2009,img/testing_events/Ba/Test_Ba_Event_1.jpg,c,,response,c,TRUE
,,,,,image-keyboard-response,119,619833,0.0-7.0-0.65,pilota_data_1635121752309,,,2102,img/testing_events/Ca/Test_Ca_Event_21.jpg,e,,response,e,TRUE
,,,,,image-keyboard-response,120,622780,0.0-7.0-0.66,pilota_data_1635121752309,,,2945,img/testing_events/Bc/Test_Bc_Event_4.jpg,c,,response,c,TRUE
,,,,,image-keyboard-response,121,624729,0.0-7.0-0.67,pilota_data_1635121752309,,,1946,img/testing_events/Cb/Test_Cb_Event_15.jpg,n,,response,n,TRUE
,,,,,image-keyboard-response,122,628190,0.0-7.0-0.68,pilota_data_1635121752309,,,3460,img/testing_events/Ab/Test_Ab_Event_4.jpg,n,,response,n,TRUE
,,,,,image-keyboard-response,123,630836,0.0-7.0-0.69,pilota_data_1635121752309,,,2644,img/testing_events/Ab/Test_Ab_Event_23.jpg,c,,response,c,TRUE
,,,,,image-keyboard-response,124,632905,0.0-7.0-0.70,pilota_data_1635121752309,,,2067,img/testing_events/Ac/Test_Ac_Event_11.jpg,n,,response,n,TRUE
,,,,,image-keyboard-response,125,635754,0.0-7.0-0.71,pilota_data_1635121752309,,,2846,img/testing_events/Bc/Test_Bc_Event_8.jpg,c,,response,c,TRUE
,,,,,image-keyboard-response,126,638847,0.0-7.0-0.72,pilota_data_1635121752309,,,3090,img/testing_events/Bc/Test_Bc_Event_2.jpg,e,,response,e,TRUE
,,,,,image-keyboard-response,127,641951,0.0-7.0-0.73,pilota_data_1635121752309,,,3101,img/testing_events/Bc/Test_Bc_Event_15.jpg,u,,response,u,TRUE
,,,,,image-keyboard-response,128,643366,0.0-7.0-0.74,pilota_data_1635121752309,,,1403,img/testing_events/Ab/Test_Ab_Event_5.jpg,e,,response,e,TRUE
,,,,,image-keyboard-response,129,647608,0.0-7.0-0.75,pilota_data_1635121752309,,,4239,img/testing_events/Ac/Test_Ac_Event_22.jpg,c,,response,c,TRUE
,,,,,image-keyboard-response,130,649578,0.0-7.0-0.76,pilota_data_1635121752309,,,1968,img/testing_events/Bc/Test_Bc_Event_6.jpg,e,,response,e,TRUE
,,,,,image-keyboard-response,131,651704,0.0-7.0-0.77,pilota_data_1635121752309,,,2124,img/testing_events/Ac/Test_Ac_Event_10.jpg,c,,response,c,TRUE
,,,,,image-keyboard-response,132,654080,0.0-7.0-0.78,pilota_data_1635121752309,,,2374,img/testing_events/Bc/Test_Bc_Event_12.jpg,c,,response,c,TRUE
,,,,,image-keyboard-response,133,658533,0.0-7.0-0.79,pilota_data_1635121752309,,,4450,img/testing_events/Ca/Test_Ca_Event_24.jpg,n,,response,n,TRUE
,,,,,image-keyboard-response,134,666737,0.0-7.0-0.80,pilota_data_1635121752309,,,8202,img/testing_events/Cb/Test_Cb_Event_23.jpg,n,,response,n,TRUE
,,,,,image-keyboard-response,135,669535,0.0-7.0-0.81,pilota_data_1635121752309,,,2795,img/testing_events/Ab/Test_Ab_Event_20.jpg,n,,response,n,TRUE
,,,,,image-keyboard-response,136,671371,0.0-7.0-0.82,pilota_data_1635121752309,,,1835,img/testing_events/Ba/Test_Ba_Event_24.jpg,u,,response,u,TRUE
,,,,,image-keyboard-response,137,674148,0.0-7.0-0.83,pilota_data_1635121752309,,,2775,img/testing_events/Ba/Test_Ba_Event_20.jpg,u,,response,u,TRUE
,,,,,image-keyboard-response,138,675477,0.0-7.0-0.84,pilota_data_1635121752309,,,1326,img/testing_events/Ca/Test_Ca_Event_1.jpg,e,,response,e,TRUE
,,,,,image-keyboard-response,139,677737,0.0-7.0-0.85,pilota_data_1635121752309,,,2258,img/testing_events/Ba/Test_Ba_Event_6.jpg,n,,response,n,TRUE
,,,,,image-keyboard-response,140,680516,0.0-7.0-0.86,pilota_data_1635121752309,,,2774,img/testing_events/Ba/Test_Ba_Event_5.jpg,c,,response,c,TRUE
,,,,,image-keyboard-response,141,682968,0.0-7.0-0.87,pilota_data_1635121752309,,,2450,img/testing_events/Ab/Test_Ab_Event_12.jpg,n,,response,n,TRUE
,,,,,image-keyboard-response,142,685128,0.0-7.0-0.88,pilota_data_1635121752309,,,2158,img/testing_events/Cb/Test_Cb_Event_6.jpg,c,,response,c,TRUE
,,,,,image-keyboard-response,143,690349,0.0-7.0-0.89,pilota_data_1635121752309,,,5219,img/testing_events/Ba/Test_Ba_Event_7.jpg,e,,response,e,TRUE
,,,,,image-keyboard-response,144,692294,0.0-7.0-0.90,pilota_data_1635121752309,,,1943,img/testing_events/Ca/Test_Ca_Event_8.jpg,n,,response,n,TRUE
,,,,,image-keyboard-response,145,694746,0.0-7.0-0.91,pilota_data_1635121752309,,,2450,img/testing_events/Ac/Test_Ac_Event_12.jpg,e,,response,e,TRUE
,,,,,image-keyboard-response,146,696255,0.0-7.0-0.92,pilota_data_1635121752309,,,1507,img/testing_events/Ac/Test_Ac_Event_17.jpg,u,,response,u,TRUE
,,,,,image-keyboard-response,147,705514,0.0-7.0-0.93,pilota_data_1635121752309,,,9257,img/testing_events/Bc/Test_Bc_Event_19.jpg,u,,response,u,TRUE
,,,,,image-keyboard-response,148,707381,0.0-7.0-0.94,pilota_data_1635121752309,,,1865,img/testing_events/Cb/Test_Cb_Event_5.jpg,u,,response,u,TRUE
,,,,,image-keyboard-response,149,710047,0.0-7.0-0.95,pilota_data_1635121752309,,,2664,img/testing_events/Ca/Test_Ca_Event_11.jpg,c,,response,c,TRUE
,,,,,image-keyboard-response,150,712015,0.0-7.0-0.96,pilota_data_1635121752309,,,1965,img/testing_events/Cb/Test_Cb_Event_12.jpg,e,,response,e,TRUE
,,,,,image-keyboard-response,151,717969,0.0-7.0-0.97,pilota_data_1635121752309,,,5952,img/testing_events/Ca/Test_Ca_Event_4.jpg,n,,response,n,TRUE
,,,,,image-keyboard-response,152,719563,0.0-7.0-0.98,pilota_data_1635121752309,,,1592,img/testing_events/Bc/Test_Bc_Event_18.jpg,e,,response,e,TRUE
,,,,,image-keyboard-response,153,722737,0.0-7.0-0.99,pilota_data_1635121752309,,,3172,img/testing_events/Cb/Test_Cb_Event_13.jpg,u,,response,u,TRUE
,,,,,image-keyboard-response,154,726787,0.0-7.0-0.100,pilota_data_1635121752309,,,4048,img/testing_events/Ba/Test_Ba_Event_10.jpg,n,,response,n,TRUE
,,,,,image-keyboard-response,155,728080,0.0-7.0-0.101,pilota_data_1635121752309,,,1290,img/testing_events/Ca/Test_Ca_Event_5.jpg,e,,response,e,TRUE
,,,,,image-keyboard-response,156,732164,0.0-7.0-0.102,pilota_data_1635121752309,,,4081,img/testing_events/Cb/Test_Cb_Event_18.jpg,c,,response,c,TRUE
,,,,,image-keyboard-response,157,737225,0.0-7.0-0.103,pilota_data_1635121752309,,,5059,img/testing_events/Ba/Test_Ba_Event_4.jpg,u,,response,u,TRUE
,,,,,image-keyboard-response,158,739352,0.0-7.0-0.104,pilota_data_1635121752309,,,2125,img/testing_events/Ca/Test_Ca_Event_19.jpg,c,,response,c,TRUE
,,,,,image-keyboard-response,159,744538,0.0-7.0-0.105,pilota_data_1635121752309,,,5184,img/testing_events/Cb/Test_Cb_Event_24.jpg,e,,response,e,TRUE
,,,,,image-keyboard-response,160,748644,0.0-7.0-0.106,pilota_data_1635121752309,,,4103,img/testing_events/Bc/Test_Bc_Event_23.jpg,u,,response,u,TRUE
,,,,,image-keyboard-response,161,751469,0.0-7.0-0.107,pilota_data_1635121752309,,,2823,img/testing_events/Ba/Test_Ba_Event_12.jpg,u,,response,u,TRUE
,,,,,image-keyboard-response,162,753134,0.0-7.0-0.108,pilota_data_1635121752309,,,1662,img/testing_events/Bc/Test_Bc_Event_24.jpg,c,,response,c,TRUE
,,,,,image-keyboard-response,163,754753,0.0-7.0-0.109,pilota_data_1635121752309,,,1614,img/testing_events/Ac/Test_Ac_Event_4.jpg,e,,response,e,TRUE
,,,,,image-keyboard-response,164,758130,0.0-7.0-0.110,pilota_data_1635121752309,,,3375,img/testing_events/Ac/Test_Ac_Event_23.jpg,n,,response,n,TRUE
,,,,,image-keyboard-response,165,759872,0.0-7.0-0.111,pilota_data_1635121752309,,,1739,img/testing_events/Ca/Test_Ca_Event_16.jpg,n,,response,n,TRUE
,,,,,image-keyboard-response,166,764147,0.0-7.0-0.112,pilota_data_1635121752309,,,4273,img/testing_events/Cb/Test_Cb_Event_9.jpg,u,,response,u,TRUE
,,,,,image-keyboard-response,167,765879,0.0-7.0-0.113,pilota_data_1635121752309,,,1729,img/testing_events/Ca/Test_Ca_Event_12.jpg,n,,response,n,TRUE
,,,,,image-keyboard-response,168,767109,0.0-7.0-0.114,pilota_data_1635121752309,,,1228,img/testing_events/Ba/Test_Ba_Event_16.jpg,u,,response,u,TRUE
,,,,,image-keyboard-response,169,768727,0.0-7.0-0.115,pilota_data_1635121752309,,,1616,img/testing_events/Cb/Test_Cb_Event_16.jpg,e,,response,e,TRUE
,,,,,image-keyboard-response,170,771134,0.0-7.0-0.116,pilota_data_1635121752309,,,2404,img/testing_events/Bc/Test_Bc_Event_9.jpg,n,,response,n,TRUE
,,,,,image-keyboard-response,171,772911,0.0-7.0-0.117,pilota_data_1635121752309,,,1774,img/testing_events/Bc/Test_Bc_Event_1.jpg,n,,response,n,TRUE
,,,,,image-keyboard-response,172,775286,0.0-7.0-0.118,pilota_data_1635121752309,,,2373,img/testing_events/Ab/Test_Ab_Event_9.jpg,e,,response,e,TRUE
,,,,,image-keyboard-response,173,776884,0.0-7.0-0.119,pilota_data_1635121752309,,,1596,img/testing_events/Ac/Test_Ac_Event_16.jpg,e,,response,e,TRUE
,,,,,image-keyboard-response,174,778884,0.0-7.0-0.120,pilota_data_1635121752309,,,1998,img/testing_events/Cb/Test_Cb_Event_19.jpg,n,,response,n,TRUE
,,,,,image-keyboard-response,175,784633,0.0-7.0-0.121,pilota_data_1635121752309,,,5747,img/testing_events/Bc/Test_Bc_Event_7.jpg,u,,response,u,TRUE
,,,,,image-keyboard-response,176,787884,0.0-7.0-0.122,pilota_data_1635121752309,,,3249,img/testing_events/Ac/Test_Ac_Event_20.jpg,e,,response,e,TRUE
,,,,,image-keyboard-response,177,789718,0.0-7.0-0.123,pilota_data_1635121752309,,,1831,img/testing_events/Ca/Test_Ca_Event_22.jpg,u,,response,u,TRUE
,,,,,image-keyboard-response,178,791283,0.0-7.0-0.124,pilota_data_1635121752309,,,1560,img/testing_events/Ac/Test_Ac_Event_15.jpg,n,,response,n,TRUE
,,,,,image-keyboard-response,179,794241,0.0-7.0-0.125,pilota_data_1635121752309,,,2956,img/testing_events/Ab/Test_Ab_Event_14.jpg,u,,response,u,TRUE
,,,,,image-keyboard-response,180,796581,0.0-7.0-0.126,pilota_data_1635121752309,,,2338,img/testing_events/Ca/Test_Ca_Event_20.jpg,n,,response,n,TRUE
,,,,,image-keyboard-response,181,799145,0.0-7.0-0.127,pilota_data_1635121752309,,,2562,img/testing_events/Ba/Test_Ba_Event_13.jpg,c,,response,c,TRUE
,,,,,image-keyboard-response,182,801768,0.0-7.0-0.128,pilota_data_1635121752309,,,2612,img/testing_events/Ba/Test_Ba_Event_21.jpg,c,,response,c,TRUE
,,,,,image-keyboard-response,183,803466,0.0-7.0-0.129,pilota_data_1635121752309,,,1695,img/testing_events/Cb/Test_Cb_Event_17.jpg,u,,response,u,TRUE
,,,,,image-keyboard-response,184,810453,0.0-7.0-0.130,pilota_data_1635121752309,,,6985,img/testing_events/Cb/Test_Cb_Event_21.jpg,u,,response,u,TRUE
,,,,,image-keyboard-response,185,812119,0.0-7.0-0.131,pilota_data_1635121752309,,,1664,img/testing_events/Ac/Test_Ac_Event_19.jpg,n,,response,n,TRUE
,,,,,image-keyboard-response,186,813557,0.0-7.0-0.132,pilota_data_1635121752309,,,1436,img/testing_events/Ba/Test_Ba_Event_11.jpg,e,,response,e,TRUE
,,,,,image-keyboard-response,187,815605,0.0-7.0-0.133,pilota_data_1635121752309,,,2046,img/testing_events/Ab/Test_Ab_Event_22.jpg,u,,response,u,TRUE
,,,,,image-keyboard-response,188,818280,0.0-7.0-0.134,pilota_data_1635121752309,,,2674,img/testing_events/Ca/Test_Ca_Event_23.jpg,c,,response,c,TRUE
,,,,,image-keyboard-response,189,822433,0.0-7.0-0.135,pilota_data_1635121752309,,,4151,img/testing_events/Ab/Test_Ab_Event_10.jpg,u,,response,u,TRUE
,,,,,image-keyboard-response,190,824007,0.0-7.0-0.136,pilota_data_1635121752309,,,1570,img/testing_events/Ac/Test_Ac_Event_24.jpg,e,,response,e,TRUE
,,,,,image-keyboard-response,191,825886,0.0-7.0-0.137,pilota_data_1635121752309,,,1876,img/testing_events/Ac/Test_Ac_Event_7.jpg,n,,response,n,TRUE
,,,,,image-keyboard-response,192,827225,0.0-7.0-0.138,pilota_data_1635121752309,,,1337,img/testing_events/Ba/Test_Ba_Event_3.jpg,e,,response,e,TRUE
,,,,,image-keyboard-response,193,834582,0.0-7.0-0.139,pilota_data_1635121752309,,,7355,img/testing_events/Ca/Test_Ca_Event_13.jpg,e,,response,e,TRUE
,,,,,image-keyboard-response,194,836755,0.0-7.0-0.140,pilota_data_1635121752309,,,2170,img/testing_events/Cb/Test_Cb_Event_2.jpg,c,,response,c,TRUE
,,,,,image-keyboard-response,195,844696,0.0-7.0-0.141,pilota_data_1635121752309,,,7939,img/testing_events/Ba/Test_Ba_Event_9.jpg,c,,response,c,TRUE
,,,,,image-keyboard-response,196,846305,0.0-7.0-0.142,pilota_data_1635121752309,,,1607,img/testing_events/Ac/Test_Ac_Event_13.jpg,u,,response,u,TRUE
,,,,,image-keyboard-response,197,848994,0.0-7.0-0.143,pilota_data_1635121752309,,,2686,img/testing_events/Ab/Test_Ab_Event_13.jpg,e,,response,e,TRUE
TRUE,,,,,fullscreen,198,848997,0.0-8.0,pilota_data_1635121752309,,,,,,,,,
,,,,,survey-text,199,862164,0.0-9.0,pilota_data_1635121752309,,,13135,,"{""Q0"":""no"",""Q1"":""no"",""Q2"":""no""}",,,,